ImageFile,LabelText,QuestionType,QuestionText,CorrectAnswer_congr,thisN,thisTrialN,thisRepN,key_resp.keys,key_resp.rt,key_resp.duration,key_resp_ans_quest_1.keys,key_resp_ans_quest_1.corr,key_resp_ans_quest_1.rt,key_resp_ans_quest_1.duration,ImageFile_All_list,LabelText_all,True_Ans_all,key_resp_recognition.keys,key_resp_recognition.corr,key_resp_recognition.rt,key_resp_recognition.duration,loop_1_block.thisRepN,loop_1_block.thisTrialN,loop_1_block.thisN,loop_1_block.thisIndex,loop_2_block.thisRepN,loop_2_block.thisTrialN,loop_2_block.thisN,loop_2_block.thisIndex,thisRow.t,notes,instr_1.started,instr_1.stopped,key_resp_instr_1.keys,key_resp_instr_1.rt,key_resp_instr_1.duration,quest_1.started,quest_1.stopped,loop_1_block.key_resp.keys,loop_1_block.key_resp.rt,loop_1_block.key_resp.duration,pic_1.started,pic_1.stopped,ans_quest_1.started,key_resp_ans_quest_1.started,ans_quest_1.stopped,loop_1_block.key_resp_ans_quest_1.keys,loop_1_block.key_resp_ans_quest_1.corr,loop_1_block.key_resp_ans_quest_1.rt,loop_1_block.key_resp_ans_quest_1.duration,instr_2.started,instr_2.stopped,key_resp_instr_2.keys,key_resp_instr_2.rt,key_resp_instr_2.duration,pic2.started,key_resp_recognition.started,pic2.stopped,loop_2_block.key_resp_recognition.keys,loop_2_block.key_resp_recognition.corr,loop_2_block.key_resp_recognition.rt,loop_2_block.key_resp_recognition.duration,final_text.started,text_fin.started,text_fin.stopped,final_text.stopped,participant,session,date,expName,psychopyVersion,frameRate,expStart,
,,,,,,,,,,,,,,,,,,,,,,,,,,,,,,,,0.011340832999849226,8.168360541996663,space,7.6621057909942465,None,,,,,,,,,,,,,,,,,,,,,,,,,,,,,,,285313,001,2025-06-19_13h52.55.315,con_exp,2024.2.4,None,2025-06-19 13h53.00.271025 +0300,
img24.png,ФАРИМОРА-САРИМОРА,Самоотнесенный,Ассоциируете ли Вы себя с этим словом?,right,0,0,0,space,7.618075625003257,None,right,1,3.768682666006498,None,,,,,,,,0,0,0,23,,,,,8.197887916998297,,,,,,,8.187386833000346,16.28493820800213,space,7.618075625003257,None,16.444382207999297,18.789690666999377,18.789737792001688,18.79853304199787,22.568538999999873,right,1,3.768682666006498,None,,,,,,,,,,,,,,,,,285313,001,2025-06-19_13h52.55.315,con_exp,2024.2.4,None,2025-06-19 13h53.00.271025 +0300,
img22.png,ВАЛЕНОНЕ-МАЛЕНОНЕ,Перцептивный,Слово написано большими буквами?,right,1,1,0,space,4.767707999999402,None,right,1,0.775041417000466,None,,,,,,,,0,1,1,21,,,,,22.57727100000193,,,,,,,22.57154804199672,27.83476916699874,space,4.767707999999402,None,27.85510470799636,30.339465874996677,30.33949600000051,30.348693457999616,31.134554042000673,right,1,0.775041417000466,None,,,,,,,,,,,,,,,,,285313,001,2025-06-19_13h52.55.315,con_exp,2024.2.4,None,2025-06-19 13h53.00.271025 +0300,
img2.png,ПАЛЕВИНО-ТАЛЕВИНО,Фонологический,Слово рифмуется с "облакино"?,right,2,2,0,space,2.0458079169984558,None,right,1,0.6984977500032983,None,,,,,,,,0,2,2,1,,,,,31.143381333000434,,,,,,,31.138551208001445,33.68468062500324,space,2.0458079169984558,None,33.70201841700327,36.19019833300263,36.19023187499988,36.19856941699982,36.90136541699758,right,1,0.6984977500032983,None,,,,,,,,,,,,,,,,,285313,001,2025-06-19_13h52.55.315,con_exp,2024.2.4,None,2025-06-19 13h53.00.271025 +0300,
img4.png,СИЛЬВЕСТЕТТО-ДИЛЬВЕСТЕТТО,Перцептивный,Слово написано большими буквами?,right,3,3,0,space,2.1791945419972762,None,left,0,1.4431748330025584,None,,,,,,,,0,3,3,3,,,,,36.90870525000355,,,,,,,36.90398095799901,39.58509291699738,space,2.1791945419972762,None,39.60270287500316,42.08978470799775,42.0898198750001,42.09848820800107,43.551391374996456,left,0,1.4431748330025584,None,,,,,,,,,,,,,,,,,285313,001,2025-06-19_13h52.55.315,con_exp,2024.2.4,None,2025-06-19 13h53.00.271025 +0300,
img8.png,ТАРЕМАТТО-КАРЕМАТТО,Фонологический,Слово рифмуется с  "ветератто"?,right,4,4,0,space,2.6489640829968266,None,right,1,0.3755024170022807,None,,,,,,,,0,4,4,7,,,,,43.56113287500193,,,,,,,43.55412875000184,46.70143562500016,space,2.6489640829968266,None,46.719681916998525,49.20619404200261,49.20622524999635,49.215282292003394,49.601138958001684,right,1,0.3755024170022807,None,,,,,,,,,,,,,,,,,285313,001,2025-06-19_13h52.55.315,con_exp,2024.2.4,None,2025-06-19 13h53.00.271025 +0300,
img13.png,миралино-киралино,Перцептивный,Слово написано большими буквами?,left,5,5,0,space,2.4801798750049784,None,left,1,0.38749283400102286,None,,,,,,,,0,5,5,12,,,,,49.609272749999946,,,,,,,49.603793624999525,52.58496291699703,space,2.4801798750049784,None,52.624220625002636,55.089728207996814,55.08976170799724,55.09845774999849,55.4903753749968,left,1,0.38749283400102286,None,,,,,,,,,,,,,,,,,285313,001,2025-06-19_13h52.55.315,con_exp,2024.2.4,None,2025-06-19 13h53.00.271025 +0300,
img14.png,БЕРЕНДИНО-ФЕРЕНДИНО,Фонологический,Слово рифмуется с "ветеритто"?,left,6,6,0,space,4.293500208004843,None,left,1,0.748610540998925,None,,,,,,,,0,6,6,13,,,,,55.49853470800008,,,,,,,55.49281062500086,60.28461433300254,space,4.293500208004843,None,60.30023324999638,62.78900900000008,62.78904583300027,62.7984277919968,63.551526625000406,left,1,0.748610540998925,None,,,,,,,,,,,,,,,,,285313,001,2025-06-19_13h52.55.315,con_exp,2024.2.4,None,2025-06-19 13h53.00.271025 +0300,
img12.png,МАЛИВОРА-БАЛИВОРА,Самоотнесенный,Ассоциируете ли Вы себя с этим словом?,right,7,7,0,space,1.5477458329987712,None,right,1,0.7032984999968903,None,,,,,,,,0,7,7,11,,,,,63.56046400000196,,,,,,,63.55454574999749,65.60150179199991,space,1.5477458329987712,None,65.62340825000138,68.1068268329982,68.10686533300031,68.11510179199831,68.82371208300174,right,1,0.7032984999968903,None,,,,,,,,,,,,,,,,,285313,001,2025-06-19_13h52.55.315,con_exp,2024.2.4,None,2025-06-19 13h53.00.271025 +0300,
img15.png,кареттето-мареттето,Самоотнесенный,Ассоциируете ли Вы себя с этим словом?,right,8,8,0,space,2.9958703329975833,None,left,0,2.078502167001716,None,,,,,,,,0,8,8,14,,,,,68.83165491699765,,,,,,,68.82388599999831,72.3180272919999,space,2.9958703329975833,None,72.33673370799806,74.82284212500235,74.82287466699927,74.83177887499915,76.91789245799737,left,0,2.078502167001716,None,,,,,,,,,,,,,,,,,285313,001,2025-06-19_13h52.55.315,con_exp,2024.2.4,None,2025-06-19 13h53.00.271025 +0300,
img21.png,фалероне-далероне,Самоотнесенный,Ассоциируете ли Вы себя с этим словом?,right,9,9,0,space,2.055503083996882,None,right,1,0.6750448750026408,None,,,,,,,,0,9,9,20,,,,,76.9232258330012,,,,,,,76.91809304199705,79.47427716699895,space,2.055503083996882,None,79.49077883300197,81.98391037499823,81.98394591700344,81.98779533299967,82.66793424999923,right,1,0.6750448750026408,None,,,,,,,,,,,,,,,,,285313,001,2025-06-19_13h52.55.315,con_exp,2024.2.4,None,2025-06-19 13h53.00.271025 +0300,
img17.png,тераделло-мераделло,Фонологический,Слово рифмуется с "облакино"?,left,10,10,0,space,3.9075558750046184,None,left,1,1.6473495409954921,None,,,,,,,,0,10,10,16,,,,,82.67610850000347,,,,,,,82.6703742919999,87.07388245799666,space,3.9075558750046184,None,87.09375575000013,89.58370362500136,89.58374037499743,89.5878235420023,91.24030029199639,left,1,1.6473495409954921,None,,,,,,,,,,,,,,,,,285313,001,2025-06-19_13h52.55.315,con_exp,2024.2.4,None,2025-06-19 13h53.00.271025 +0300,
img23.png,ромасора-комасора,Фонологический,Слово рифмуется с "туманетто"?,left,11,11,0,space,1.457498834002763,None,left,1,0.9042923749948386,None,,,,,,,,0,11,11,22,,,,,91.24901720799971,,,,,,,91.24294262500189,93.20082966700284,space,1.457498834002763,None,93.21738533300231,95.70594841700222,95.70598112500011,95.71510491699883,96.62413774999732,left,1,0.9042923749948386,None,,,,,,,,,,,,,,,,,285313,001,2025-06-19_13h52.55.315,con_exp,2024.2.4,None,2025-06-19 13h53.00.271025 +0300,
img10.png,ТАЛЕРОНЕ-КАРЕЛОНЕ,Перцептивный,Слово написано большими буквами?,right,12,12,0,space,2.207794041998568,None,left,0,0.6609761250001611,None,,,,,,,,0,12,12,9,,,,,96.64838441699976,,,,,,,96.62705554199783,99.33448800000042,space,2.207794041998568,None,99.36899308300053,101.83989529200335,101.83992975000001,101.84838083299837,102.51812587500172,left,0,0.6609761250001611,None,,,,,,,,,,,,,,,,,285313,001,2025-06-19_13h52.55.315,con_exp,2024.2.4,None,2025-06-19 13h53.00.271025 +0300,
img1.png,валичино-саличино,Перцептивный,Слово написано большими буквами?,left,13,13,0,space,0.9406066669980646,None,left,1,0.5879612499993527,None,,,,,,,,0,13,13,0,,,,,102.52410637499997,,,,,,,102.51831445800053,103.95700366699748,space,0.9406066669980646,None,103.97739183300291,106.46743641699868,106.46747008300008,106.47174858299695,107.06936125000357,left,1,0.5879612499993527,None,,,,,,,,,,,,,,,,,285313,001,2025-06-19_13h52.55.315,con_exp,2024.2.4,None,2025-06-19 13h53.00.271025 +0300,
img18.png,СУРАНЕЛЛО-ЛУРАНЕЛЛО,Самоотнесенный,Ассоциируете ли Вы себя с этим словом?,right,14,14,0,space,1.0566867500019725,None,right,1,0.5385386659982032,None,,,,,,,,0,14,14,17,,,,,107.07770320800046,,,,,,,107.07264212500013,108.62381916699815,space,1.0566867500019725,None,108.64059970800008,111.13375274999999,111.13379400000122,111.13780608300294,111.68437862500286,right,1,0.5385386659982032,None,,,,,,,,,,,,,,,,,285313,001,2025-06-19_13h52.55.315,con_exp,2024.2.4,None,2025-06-19 13h53.00.271025 +0300,
img20.png,ВАЛЕКИТТО-МАЛЕКИТТО,Фонологический,Слово рифмуется с "пейзажитто"?,right,15,15,0,space,2.8466966249980032,None,left,0,0.5395097919972613,None,,,,,,,,0,15,15,19,,,,,111.69279000000097,,,,,,,111.6872349999976,115.03461608300131,space,2.8466966249980032,None,115.0733780829978,117.53934887499781,117.53938266699697,117.54817437499878,118.09034808300203,left,0,0.5395097919972613,None,,,,,,,,,,,,,,,,,285313,001,2025-06-19_13h52.55.315,con_exp,2024.2.4,None,2025-06-19 13h53.00.271025 +0300,
img6.png,КАРОФЕЛЛО-МАРОФЕЛЛО,Самоотнесенный,Ассоциируете ли Вы себя с этим словом?,right,16,16,0,space,1.6156024580050143,None,right,1,0.5311962499981746,None,,,,,,,,0,16,16,5,,,,,118.09886879200349,,,,,,,118.09311591699952,120.20687029200053,space,1.6156024580050143,None,120.2288868329997,122.71731391699723,122.71735429199907,122.72149404200172,123.2567471250004,right,1,0.5311962499981746,None,,,,,,,,,,,,,,,,,285313,001,2025-06-19_13h52.55.315,con_exp,2024.2.4,None,2025-06-19 13h53.00.271025 +0300,
img16.png,ТЕРАЛЕТТО-МЕРАЛЕТТО,Перцептивный,Слово написано большими буквами?,right,17,17,0,space,1.0657570830007899,None,left,0,0.4850522499982617,None,,,,,,,,0,17,17,15,,,,,123.26492337499803,,,,,,,123.25927124999725,124.82380299999932,space,1.0657570830007899,None,124.86140337499819,127.33371479200287,127.3337473749998,127.33791762500186,127.83441641699756,left,0,0.4850522499982617,None,,,,,,,,,,,,,,,,,285313,001,2025-06-19_13h52.55.315,con_exp,2024.2.4,None,2025-06-19 13h53.00.271025 +0300,
img7.png,марилитто-сарилитто,Перцептивный,Слово написано большими буквами?,left,18,18,0,space,1.0303510420053499,None,right,0,0.6197909160036943,None,,,,,,,,0,18,18,6,,,,,127.84013499999855,,,,,,,127.8345918749983,129.36776808300056,space,1.0303510420053499,None,129.38374858300085,131.87258479199954,131.8726181250022,131.8814227920011,132.5063811250002,right,0,0.6197909160036943,None,,,,,,,,,,,,,,,,,285313,001,2025-06-19_13h52.55.315,con_exp,2024.2.4,None,2025-06-19 13h53.00.271025 +0300,
img9.png,маривоне-саривоне,Самоотнесенный,Ассоциируете ли Вы себя с этим словом?,right,19,19,0,space,0.9642633749972447,None,left,0,0.44323212500603404,None,,,,,,,,0,19,19,8,,,,,132.51445041700208,,,,,,,132.5091112079972,133.97365162499773,space,0.9642633749972447,None,134.01095941699896,136.48342137500003,136.48344862499653,136.48739404200023,136.9344617079987,left,0,0.44323212500603404,None,,,,,,,,,,,,,,,,,285313,001,2025-06-19_13h52.55.315,con_exp,2024.2.4,None,2025-06-19 13h53.00.271025 +0300,
img3.png,бенедетто-фенедетто,Самоотнесенный,Ассоциируете ли Вы себя с этим словом?,right,20,20,0,space,0.9586302919997252,None,right,1,0.3605129580028006,None,,,,,,,,0,20,20,2,,,,,136.9403022080005,,,,,,,136.93464329199924,138.4008953329976,space,0.9586302919997252,None,138.41944595800305,140.9062772920006,140.90630862500257,140.91495712500182,141.28431162500056,right,1,0.3605129580028006,None,,,,,,,,,,,,,,,,,285313,001,2025-06-19_13h52.55.315,con_exp,2024.2.4,None,2025-06-19 13h53.00.271025 +0300,
img19.png,фарензитто-дарензитто,Перцептивный,Слово написано большими буквами?,left,21,21,0,space,1.5751678749948042,None,left,1,0.5964089580011205,None,,,,,,,,0,21,21,18,,,,,141.29257445799885,,,,,,,141.28703787500126,143.36754883299727,space,1.5751678749948042,None,143.38257512499695,145.8727825829992,145.87281883299875,145.8817935420011,146.48434825000004,left,1,0.5964089580011205,None,,,,,,,,,,,,,,,,,285313,001,2025-06-19_13h52.55.315,con_exp,2024.2.4,None,2025-06-19 13h53.00.271025 +0300,
img5.png,ралентелло-палентелло,Фонологический,Слово рифмуется с "пейзажини"?,left,22,22,0,space,0.9613727919931989,None,left,1,0.296960207997472,None,,,,,,,,0,22,22,4,,,,,146.49266008300037,,,,,,,146.48688275000313,147.95107049999933,space,0.9613727919931989,None,147.96975633299735,150.45592337499693,150.45595487499668,150.46474675000354,150.76773204199708,left,1,0.296960207997472,None,,,,,,,,,,,,,,,,,285313,001,2025-06-19_13h52.55.315,con_exp,2024.2.4,None,2025-06-19 13h53.00.271025 +0300,
img11.png,таривора-каривора,Фонологический,Слово рифмуется с "туманора"?,right,23,23,0,space,1.1358757500056527,None,right,1,0.0007645000005140901,None,,,,,,,,0,23,23,10,,,,,150.77593316700222,,,,,,,150.77039304200298,152.40700725000352,space,1.1358757500056527,None,152.44609979200322,154.91672862500127,154.9167589580029,154.92051679200085,154.9235565830022,right,1,0.0007645000005140901,None,,,,,,,,,,,,,,,,,285313,001,2025-06-19_13h52.55.315,con_exp,2024.2.4,None,2025-06-19 13h53.00.271025 +0300,
,,,,,,,,,,,,,,,,,,,,,,,,,,,,,,,,,,,,,,,,,,,,,,,,,,,154.92369887499808,157.7910736670019,space,2.856665208004415,None,,,,,,,,,,,,285313,001,2025-06-19_13h52.55.315,con_exp,2024.2.4,None,2025-06-19 13h53.00.271025 +0300,
,,,,,0,0,0,,,,,,,,img41.png,данирелло-ланирелло,left,left,0,3.453608374999021,None,,,,,0,0,0,40,157.8257090420011,,,,,,,,,,,,,,,,,,,,,,,,,,157.820100500001,157.8257090420011,161.2842139170025,left,0,3.453608374999021,None,,,,,285313,001,2025-06-19_13h52.55.315,con_exp,2024.2.4,None,2025-06-19 13h53.00.271025 +0300,
,,,,,1,1,0,,,,,,,,img10.png,ТАЛЕРОНЕ-КАРЕЛОНЕ,right,left,0,0.509095833003812,None,,,,,0,1,1,9,161.32369620799727,,,,,,,,,,,,,,,,,,,,,,,,,,161.31916649999766,161.32369620799727,161.8339832920028,left,0,0.509095833003812,None,,,,,285313,001,2025-06-19_13h52.55.315,con_exp,2024.2.4,None,2025-06-19 13h53.00.271025 +0300,
,,,,,2,2,0,,,,,,,,img44.png,КАЛЕМИТТО-РАМЕЛИТТО,left,left,0,0.3606195829997887,None,,,,,0,2,2,43,161.86071733300196,,,,,,,,,,,,,,,,,,,,,,,,,,161.8559868750017,161.86071733300196,162.22340266699757,left,0,0.3606195829997887,None,,,,,285313,001,2025-06-19_13h52.55.315,con_exp,2024.2.4,None,2025-06-19 13h53.00.271025 +0300,
,,,,,3,3,0,,,,,,,,img39.png,гередетто-баридетто,left,left,0,0.24569329200312495,None,,,,,0,3,3,38,162.24471429199912,,,,,,,,,,,,,,,,,,,,,,,,,,162.24023599999782,162.24471429199912,162.5006310000026,left,0,0.24569329200312495,None,,,,,285313,001,2025-06-19_13h52.55.315,con_exp,2024.2.4,None,2025-06-19 13h53.00.271025 +0300,
,,,,,4,4,0,,,,,,,,img35.png,ларимвора-маривора,left,left,0,0.2804385000054026,None,,,,,0,4,4,34,162.5243100000007,,,,,,,,,,,,,,,,,,,,,,,,,,162.51962920799997,162.5243100000007,162.80646920800064,left,0,0.2804385000054026,None,,,,,285313,001,2025-06-19_13h52.55.315,con_exp,2024.2.4,None,2025-06-19 13h53.00.271025 +0300,
,,,,,5,5,0,,,,,,,,img43.png,симаритто-римаритто,left,left,0,0.5689344170023105,None,,,,,0,5,5,42,162.82693445799669,,,,,,,,,,,,,,,,,,,,,,,,,,162.82250475000183,162.82693445799669,163.4008196249997,left,0,0.5689344170023105,None,,,,,285313,001,2025-06-19_13h52.55.315,con_exp,2024.2.4,None,2025-06-19 13h53.00.271025 +0300,
,,,,,6,6,0,,,,,,,,img42.png,БАРОТЕЛЛО-ПАРОТЕЛЛО,left,left,0,0.5001767499998095,None,,,,,0,6,6,41,163.42305079200014,,,,,,,,,,,,,,,,,,,,,,,,,,163.41853204200015,163.42305079200014,163.92428491699684,left,0,0.5001767499998095,None,,,,,285313,001,2025-06-19_13h52.55.315,con_exp,2024.2.4,None,2025-06-19 13h53.00.271025 +0300,
,,,,,7,7,0,,,,,,,,img29.png,палеттелло-талеттело,left,left,0,0.323776707999059,None,,,,,0,7,7,28,163.94718158299656,,,,,,,,,,,,,,,,,,,,,,,,,,163.94295491700177,163.94718158299656,164.27343074999953,left,0,0.323776707999059,None,,,,,285313,001,2025-06-19_13h52.55.315,con_exp,2024.2.4,None,2025-06-19 13h53.00.271025 +0300,
,,,,,8,8,0,,,,,,,,img20.png,ВАЛЕКИТТО-МАЛЕКИТТО,right,left,0,0.29614487499929965,None,,,,,0,8,8,19,164.3114907920026,,,,,,,,,,,,,,,,,,,,,,,,,,164.3070327079986,164.3114907920026,164.6171197079966,left,0,0.29614487499929965,None,,,,,285313,001,2025-06-19_13h52.55.315,con_exp,2024.2.4,None,2025-06-19 13h53.00.271025 +0300,
,,,,,9,9,0,,,,,,,,img36.png,ДАРИМОРА-ПАРИМОРА,left,left,0,0.2836660410030163,None,,,,,0,9,9,35,164.63805058300204,,,,,,,,,,,,,,,,,,,,,,,,,,164.63363345799735,164.63805058300204,164.92366633300117,left,0,0.2836660410030163,None,,,,,285313,001,2025-06-19_13h52.55.315,con_exp,2024.2.4,None,2025-06-19 13h53.00.271025 +0300,
,,,,,10,10,0,,,,,,,,img9.png,маривоне-саривоне,right,left,0,0.2716317079975852,None,,,,,0,10,10,8,164.96320804199786,,,,,,,,,,,,,,,,,,,,,,,,,,164.95881024999835,164.96320804199786,165.23937499999738,left,0,0.2716317079975852,None,,,,,285313,001,2025-06-19_13h52.55.315,con_exp,2024.2.4,None,2025-06-19 13h53.00.271025 +0300,
,,,,,11,11,0,,,,,,,,img27.png,рембебетто-пемферетто,left,left,0,0.2778380419986206,None,,,,,0,11,11,26,165.25983879200066,,,,,,,,,,,,,,,,,,,,,,,,,,165.25543141699745,165.25983879200066,165.53994262500055,left,0,0.2778380419986206,None,,,,,285313,001,2025-06-19_13h52.55.315,con_exp,2024.2.4,None,2025-06-19 13h53.00.271025 +0300,
,,,,,12,12,0,,,,,,,,img47.png,телевора-малевора,left,left,0,0.28920949999883305,None,,,,,0,12,12,46,165.56115987499652,,,,,,,,,,,,,,,,,,,,,,,,,,165.55689574999997,165.56115987499652,165.85670208300144,left,0,0.28920949999883305,None,,,,,285313,001,2025-06-19_13h52.55.315,con_exp,2024.2.4,None,2025-06-19 13h53.00.271025 +0300,
,,,,,13,13,0,,,,,,,,img17.png,тераделло-мераделло,right,left,0,0.25144312500196975,None,,,,,0,13,13,16,165.87575929200102,,,,,,,,,,,,,,,,,,,,,,,,,,165.87133624999842,165.87575929200102,166.13412120800058,left,0,0.25144312500196975,None,,,,,285313,001,2025-06-19_13h52.55.315,con_exp,2024.2.4,None,2025-06-19 13h53.00.271025 +0300,
,,,,,14,14,0,,,,,,,,img6.png,КАРОФЕЛЛО-МАРОФЕЛЛО,right,left,0,0.27742762499838136,None,,,,,0,14,14,5,166.1552392500016,,,,,,,,,,,,,,,,,,,,,,,,,,166.15064541700121,166.1552392500016,166.43412566700135,left,0,0.27742762499838136,None,,,,,285313,001,2025-06-19_13h52.55.315,con_exp,2024.2.4,None,2025-06-19 13h53.00.271025 +0300,
,,,,,15,15,0,,,,,,,,img21.png,фалероне-далероне,right,left,0,0.3023458330062567,None,,,,,0,15,15,20,166.45366374999867,,,,,,,,,,,,,,,,,,,,,,,,,,166.44916512499913,166.45366374999867,166.7675551670036,left,0,0.3023458330062567,None,,,,,285313,001,2025-06-19_13h52.55.315,con_exp,2024.2.4,None,2025-06-19 13h53.00.271025 +0300,
,,,,,16,16,0,,,,,,,,img30.png,ФЕЛЛИДЕЛЛО-МЕЛЛИДЕЛЛО,left,left,0,0.28287695899780374,None,,,,,0,16,16,29,166.7889432919983,,,,,,,,,,,,,,,,,,,,,,,,,,166.78448654199747,166.7889432919983,167.07349412499752,left,0,0.28287695899780374,None,,,,,285313,001,2025-06-19_13h52.55.315,con_exp,2024.2.4,None,2025-06-19 13h53.00.271025 +0300,
,,,,,17,17,0,,,,,,,,img13.png,миралино-киралино,right,left,0,0.2581675840046955,None,,,,,0,17,17,12,167.11163204199693,,,,,,,,,,,,,,,,,,,,,,,,,,167.10726299999806,167.11163204199693,167.3731426250015,left,0,0.2581675840046955,None,,,,,285313,001,2025-06-19_13h52.55.315,con_exp,2024.2.4,None,2025-06-19 13h53.00.271025 +0300,
,,,,,18,18,0,,,,,,,,img40.png,ГЕРОТЕТТО-ЛЕРОТЕТТО,left,left,0,0.2888812080054777,None,,,,,0,18,18,39,167.39338000000134,,,,,,,,,,,,,,,,,,,,,,,,,,167.38887533300294,167.39338000000134,167.6842717920008,left,0,0.2888812080054777,None,,,,,285313,001,2025-06-19_13h52.55.315,con_exp,2024.2.4,None,2025-06-19 13h53.00.271025 +0300,
,,,,,19,19,0,,,,,,,,img31.png,лорематто-форематто,left,left,0,0.2640229160024319,None,,,,,0,19,19,30,167.70499754200137,,,,,,,,,,,,,,,,,,,,,,,,,,167.7006994580006,167.70499754200137,167.9734410000019,left,0,0.2640229160024319,None,,,,,285313,001,2025-06-19_13h52.55.315,con_exp,2024.2.4,None,2025-06-19 13h53.00.271025 +0300,
,,,,,20,20,0,,,,,,,,img3.png,бенедетто-фенедетто,right,left,0,0.3010344170033932,None,,,,,0,20,20,2,167.99490479200176,,,,,,,,,,,,,,,,,,,,,,,,,,167.99066887499794,167.99490479200176,168.30048454200005,left,0,0.3010344170033932,None,,,,,285313,001,2025-06-19_13h52.55.315,con_exp,2024.2.4,None,2025-06-19 13h53.00.271025 +0300,
,,,,,21,21,0,,,,,,,,img19.png,фарензитто-дарензитто,right,left,0,0.25331366599857574,None,,,,,0,21,21,18,168.31876820800244,,,,,,,,,,,,,,,,,,,,,,,,,,168.31463999999687,168.31876820800244,168.57303504199808,left,0,0.25331366599857574,None,,,,,285313,001,2025-06-19_13h52.55.315,con_exp,2024.2.4,None,2025-06-19 13h53.00.271025 +0300,
,,,,,22,22,0,,,,,,,,img38.png,ЛАРИЧИНО-МАРИЧИНО,left,left,0,0.2669457909942139,None,,,,,0,22,22,37,168.59389895800268,,,,,,,,,,,,,,,,,,,,,,,,,,168.58975812500285,168.59389895800268,168.86715749999712,left,0,0.2669457909942139,None,,,,,285313,001,2025-06-19_13h52.55.315,con_exp,2024.2.4,None,2025-06-19 13h53.00.271025 +0300,
,,,,,23,23,0,,,,,,,,img7.png,марилитто-сарилитто,right,left,0,0.27350462500180583,None,,,,,0,23,23,6,168.88672812499863,,,,,,,,,,,,,,,,,,,,,,,,,,168.88246824999806,168.88672812499863,169.16741349999938,left,0,0.27350462500180583,None,,,,,285313,001,2025-06-19_13h52.55.315,con_exp,2024.2.4,None,2025-06-19 13h53.00.271025 +0300,
,,,,,24,24,0,,,,,,,,img5.png,ралентелло-палентелло,right,left,0,0.26081691699801013,None,,,,,0,24,24,4,169.19043791700096,,,,,,,,,,,,,,,,,,,,,,,,,,169.18586087499716,169.19043791700096,169.45657962500263,left,0,0.26081691699801013,None,,,,,285313,001,2025-06-19_13h52.55.315,con_exp,2024.2.4,None,2025-06-19 13h53.00.271025 +0300,
,,,,,25,25,0,,,,,,,,img4.png,СИЛЬВЕСТЕТТО-ДИЛЬВЕСТЕТТО,right,left,0,0.2477500000022701,None,,,,,0,25,25,3,169.47727679200034,,,,,,,,,,,,,,,,,,,,,,,,,,169.47261087499646,169.47727679200034,169.7339350830007,left,0,0.2477500000022701,None,,,,,285313,001,2025-06-19_13h52.55.315,con_exp,2024.2.4,None,2025-06-19 13h53.00.271025 +0300,
,,,,,26,26,0,,,,,,,,img25.png,ромалино-комалино,left,left,0,0.2484847079977044,None,,,,,0,26,26,24,169.7559703750012,,,,,,,,,,,,,,,,,,,,,,,,,,169.751413375001,169.7559703750012,170.00620424999943,left,0,0.2484847079977044,None,,,,,285313,001,2025-06-19_13h52.55.315,con_exp,2024.2.4,None,2025-06-19 13h53.00.271025 +0300,
,,,,,27,27,0,,,,,,,,img32.png,ГАЛЕРДИТТО-ПАЛЕРДИТТО,left,left,0,0.2775184589991113,None,,,,,0,27,27,31,170.02696770799957,,,,,,,,,,,,,,,,,,,,,,,,,,170.02269425000122,170.02696770799957,170.30685383299715,left,0,0.2775184589991113,None,,,,,285313,001,2025-06-19_13h52.55.315,con_exp,2024.2.4,None,2025-06-19 13h53.00.271025 +0300,
,,,,,28,28,0,,,,,,,,img33.png,гамароне-памороне,left,left,0,0.2686526660036179,None,,,,,0,28,28,32,170.32755262499995,,,,,,,,,,,,,,,,,,,,,,,,,,170.32297624999774,170.32755262499995,170.60090237500117,left,0,0.2686526660036179,None,,,,,285313,001,2025-06-19_13h52.55.315,con_exp,2024.2.4,None,2025-06-19 13h53.00.271025 +0300,
,,,,,29,29,0,,,,,,,,img37.png,фелентино-мелентино,left,left,0,0.2704718339955434,None,,,,,0,29,29,36,170.62189191699872,,,,,,,,,,,,,,,,,,,,,,,,,,170.6175387080002,170.62189191699872,170.90052375000232,left,0,0.2704718339955434,None,,,,,285313,001,2025-06-19_13h52.55.315,con_exp,2024.2.4,None,2025-06-19 13h53.00.271025 +0300,
,,,,,30,30,0,,,,,,,,img16.png,ТЕРАЛЕТТО-МЕРАЛЕТТО,right,left,0,0.23832599999877857,None,,,,,0,30,30,15,170.9382233330034,,,,,,,,,,,,,,,,,,,,,,,,,,170.93388229200355,170.9382233330034,171.18386199999804,left,0,0.23832599999877857,None,,,,,285313,001,2025-06-19_13h52.55.315,con_exp,2024.2.4,None,2025-06-19 13h53.00.271025 +0300,
,,,,,31,31,0,,,,,,,,img48.png,БАРИЛОРА-ПАЛИЛОРА,left,left,0,0.23395049999817275,None,,,,,0,31,31,47,171.20482762499887,,,,,,,,,,,,,,,,,,,,,,,,,,171.20033358300134,171.20482762499887,171.43970279199857,left,0,0.23395049999817275,None,,,,,285313,001,2025-06-19_13h52.55.315,con_exp,2024.2.4,None,2025-06-19 13h53.00.271025 +0300,
,,,,,32,32,0,,,,,,,,img23.png,ромасора-комасора,right,left,0,0.2658879579976201,None,,,,,0,32,32,22,171.46467675000167,,,,,,,,,,,,,,,,,,,,,,,,,,171.45993312499922,171.46467675000167,171.73415862499678,left,0,0.2658879579976201,None,,,,,285313,001,2025-06-19_13h52.55.315,con_exp,2024.2.4,None,2025-06-19 13h53.00.271025 +0300,
,,,,,33,33,0,,,,,,,,img22.png,ВАЛЕНОНЕ-МАЛЕНОНЕ,right,left,0,0.2509300419987994,None,,,,,0,33,33,21,171.75505887500185,,,,,,,,,,,,,,,,,,,,,,,,,,171.75068954200106,171.75505887500185,172.00695787499717,left,0,0.2509300419987994,None,,,,,285313,001,2025-06-19_13h52.55.315,con_exp,2024.2.4,None,2025-06-19 13h53.00.271025 +0300,
,,,,,34,34,0,,,,,,,,img2.png,ПАЛЕВИНО-ТАЛЕВИНО,right,left,0,0.26617062500008615,None,,,,,0,34,34,1,172.0271784170036,,,,,,,,,,,,,,,,,,,,,,,,,,172.02286170799925,172.0271784170036,172.30080529199768,left,0,0.26617062500008615,None,,,,,285313,001,2025-06-19_13h52.55.315,con_exp,2024.2.4,None,2025-06-19 13h53.00.271025 +0300,
,,,,,35,35,0,,,,,,,,img8.png,ТАРЕМАТТО-КАРЕМАТТО,right,left,0,0.2403368750019581,None,,,,,0,35,35,7,172.32302124999842,,,,,,,,,,,,,,,,,,,,,,,,,,172.31882483299705,172.32302124999842,172.56689750000078,left,0,0.2403368750019581,None,,,,,285313,001,2025-06-19_13h52.55.315,con_exp,2024.2.4,None,2025-06-19 13h53.00.271025 +0300,
,,,,,36,36,0,,,,,,,,img11.png,таривора-каривора,right,left,0,0.23156512500281679,None,,,,,0,36,36,10,172.6070117499985,,,,,,,,,,,,,,,,,,,,,,,,,,172.6026381249976,172.6070117499985,172.85023858299974,left,0,0.23156512500281679,None,,,,,285313,001,2025-06-19_13h52.55.315,con_exp,2024.2.4,None,2025-06-19 13h53.00.271025 +0300,
,,,,,37,37,0,,,,,,,,img18.png,СУРАНЕЛЛО-ЛУРАНЕЛЛО,right,left,0,0.2782385409955168,None,,,,,0,37,37,17,172.86799804199836,,,,,,,,,,,,,,,,,,,,,,,,,,172.86475066700223,172.86799804199836,173.15047391699773,left,0,0.2782385409955168,None,,,,,285313,001,2025-06-19_13h52.55.315,con_exp,2024.2.4,None,2025-06-19 13h53.00.271025 +0300,
,,,,,38,38,0,,,,,,,,img46.png,КАЛЕРОНЕ-ВАЛЕРОНЕ,left,left,0,0.2642102079989854,None,,,,,0,38,38,45,173.17112320799788,,,,,,,,,,,,,,,,,,,,,,,,,,173.16655841699685,173.17112320799788,173.44011058299657,left,0,0.2642102079989854,None,,,,,285313,001,2025-06-19_13h52.55.315,con_exp,2024.2.4,None,2025-06-19 13h53.00.271025 +0300,
,,,,,39,39,0,,,,,,,,img15.png,кареттето-мареттето,right,left,0,0.2235924589986098,None,,,,,0,39,39,14,173.4599162500017,,,,,,,,,,,,,,,,,,,,,,,,,,173.45534329200018,173.4599162500017,173.68478637500084,left,0,0.2235924589986098,None,,,,,285313,001,2025-06-19_13h52.55.315,con_exp,2024.2.4,None,2025-06-19 13h53.00.271025 +0300,
,,,,,40,40,0,,,,,,,,img26.png,ДАЛЕТИНО-ПАЛЕТИНО,left,left,0,0.24516079200111562,None,,,,,0,40,40,25,173.7055321250009,,,,,,,,,,,,,,,,,,,,,,,,,,173.7010274580025,173.7055321250009,173.95544870800222,left,0,0.24516079200111562,None,,,,,285313,001,2025-06-19_13h52.55.315,con_exp,2024.2.4,None,2025-06-19 13h53.00.271025 +0300,
,,,,,41,41,0,,,,,,,,img28.png,ВАЛЕНТЕТТО-МАЛЕНТЕТТО,left,left,0,0.25327595799899427,None,,,,,0,41,41,27,173.97297933299706,,,,,,,,,,,,,,,,,,,,,,,,,,173.9682775830006,173.97297933299706,174.23366433299816,left,0,0.25327595799899427,None,,,,,285313,001,2025-06-19_13h52.55.315,con_exp,2024.2.4,None,2025-06-19 13h53.00.271025 +0300,
,,,,,42,42,0,,,,,,,,img14.png,БЕРЕНДИНО-ФЕРЕНДИНО,right,left,0,0.23178850000113016,None,,,,,0,42,42,13,174.25339533299848,,,,,,,,,,,,,,,,,,,,,,,,,,174.24899020799785,174.25339533299848,174.48967954199907,left,0,0.23178850000113016,None,,,,,285313,001,2025-06-19_13h52.55.315,con_exp,2024.2.4,None,2025-06-19 13h53.00.271025 +0300,
,,,,,43,43,0,,,,,,,,img45.png,лоремоне-форемоне,left,left,0,0.2336566669982858,None,,,,,0,43,43,44,174.51030908300163,,,,,,,,,,,,,,,,,,,,,,,,,,174.50624745799723,174.51030908300163,174.7511351669964,left,0,0.2336566669982858,None,,,,,285313,001,2025-06-19_13h52.55.315,con_exp,2024.2.4,None,2025-06-19 13h53.00.271025 +0300,
,,,,,44,44,0,,,,,,,,img1.png,валичино-саличино,right,left,0,0.20283141599793453,None,,,,,0,44,44,0,174.77336208299675,,,,,,,,,,,,,,,,,,,,,,,,,,174.76915045799979,174.77336208299675,174.98372395800106,left,0,0.20283141599793453,None,,,,,285313,001,2025-06-19_13h52.55.315,con_exp,2024.2.4,None,2025-06-19 13h53.00.271025 +0300,
,,,,,45,45,0,,,,,,,,img34.png,СИМАДОНЕ-РИМАДОНЕ,left,left,0,0.22541929200087907,None,,,,,0,45,45,33,175.00457095800084,,,,,,,,,,,,,,,,,,,,,,,,,,175.00009287500143,175.00457095800084,175.23393933299667,left,0,0.22541929200087907,None,,,,,285313,001,2025-06-19_13h52.55.315,con_exp,2024.2.4,None,2025-06-19 13h53.00.271025 +0300,
,,,,,46,46,0,,,,,,,,img12.png,МАЛИВОРА-БАЛИВОРА,right,left,0,0.21519804099807516,None,,,,,0,46,46,11,175.25607416700223,,,,,,,,,,,,,,,,,,,,,,,,,,175.25154949999705,175.25607416700223,175.4735232919993,left,0,0.21519804099807516,None,,,,,285313,001,2025-06-19_13h52.55.315,con_exp,2024.2.4,None,2025-06-19 13h53.00.271025 +0300,
,,,,,47,47,0,,,,,,,,img24.png,ФАРИМОРА-САРИМОРА,right,left,0,0.23998354200011818,None,,,,,0,47,47,23,175.49518762499793,,,,,,,,,,,,,,,,,,,,,,,,,,175.49104112500208,175.49518762499793,175.73974450000242,left,0,0.23998354200011818,None,,,,,285313,001,2025-06-19_13h52.55.315,con_exp,2024.2.4,None,2025-06-19 13h53.00.271025 +0300,
,,,,,,,,,,,,,,,,,,,,,,,,,,,,,,,,,,,,,,,,,,,,,,,,,,,,,,,,,,,,,,,175.73985074999655,175.7479372079979,177.73715025000274,177.73358433300018,285313,001,2025-06-19_13h52.55.315,con_exp,2024.2.4,None,2025-06-19 13h53.00.271025 +0300,
