ImageFile,LabelText,QuestionType,QuestionText,CorrectAnswer_congr,ImageFile_All_list,LabelText_all,True_Ans_all,loop_1_block.thisRepN,loop_1_block.thisTrialN,loop_1_block.thisN,loop_1_block.thisIndex,loop_2_block.thisRepN,loop_2_block.thisTrialN,loop_2_block.thisN,loop_2_block.thisIndex,thisRow.t,notes,instr_1.started,instr_1.stopped,key_resp_instr_1.keys,key_resp_instr_1.rt,key_resp_instr_1.duration,quest_1.started,quest_1.stopped,key_resp.keys,key_resp.rt,key_resp.duration,pic_1.started,pic_1.stopped,ans_quest_1.started,key_resp_ans_quest_1.started,ans_quest_1.stopped,key_resp_ans_quest_1.keys,key_resp_ans_quest_1.corr,key_resp_ans_quest_1.rt,key_resp_ans_quest_1.duration,instr_2.started,instr_2.stopped,key_resp_instr_2.keys,key_resp_instr_2.rt,key_resp_instr_2.duration,pic2.started,key_resp_recognition.started,pic2.stopped,key_resp_recognition.keys,key_resp_recognition.corr,key_resp_recognition.rt,key_resp_recognition.duration,final_text.started,text_fin.started,text_fin.stopped,final_text.stopped,participant,session,date,expName,psychopyVersion,frameRate,expStart,
,,,,,,,,,,,,,,,,,,0.011896799999931318,47.02237489999993,space,46.510656400000016,None,,,,,,,,,,,,,,,,,,,,,,,,,,,,,,,315882,001,2025-05-19_21h46.30.255,con_exp,2023.2.3,59.9984040424415,2025-05-19 21h46.47.156212 +0300,
img23.png,чайничитто-кошачитто,Фонологический,Слово рифмуется с "туманетто"?,left,,,,0,0,0,22,,,,,47.08312749999982,,,,,,,47.05849319999993,53.03557460000002,space,5.4947455000001355,None,53.04359599999998,55.55130209999993,55.55132239999989,55.5678105999998,57.95229039999981,right,0,2.381731999999829,None,,,,,,,,,,,,,,,,,315882,001,2025-05-19_21h46.30.255,con_exp,2023.2.3,59.9984040424415,2025-05-19 21h46.47.156212 +0300,
img1.png,арбузоро-гепардоро,Перцептивный,Слово написано большими буквами?,left,,,,0,1,1,0,,,,,57.96791949999988,,,,,,,57.9532236,59.56899989999988,space,1.0903923999999279,None,59.56936780000001,62.08470599999987,62.0847190999998,62.10131359999991,64.06909899999982,right,0,1.9517154000000119,None,,,,,,,,,,,,,,,,,315882,001,2025-05-19_21h46.30.255,con_exp,2023.2.3,59.9984040424415,2025-05-19 21h46.47.156212 +0300,
img7.png,кирпичони-саранчони,Перцептивный,Слово написано большими буквами?,left,,,,0,2,2,6,,,,,64.08447069999988,,,,,,,64.06979239999987,65.65239049999991,space,1.05292089999989,None,65.65275259999999,68.16810239999995,68.16811659999985,68.18449629999986,71.13613809999993,right,0,2.9485297999999602,None,,,,,,,,,,,,,,,,,315882,001,2025-05-19_21h46.30.255,con_exp,2023.2.3,59.9984040424415,2025-05-19 21h46.47.156212 +0300,
img13.png,мандарино-пингвинино,Перцептивный,Слово написано большими буквами?,left,,,,0,3,3,12,,,,,71.15129819999993,,,,,,,71.1367902999998,72.7857606,space,1.1282504999999219,None,72.78613999999993,75.3015175999999,75.30153459999997,75.31801649999989,76.4359109999998,right,0,1.1065370999999686,None,,,,,,,,,,,,,,,,,315882,001,2025-05-19_21h46.30.255,con_exp,2023.2.3,59.9984040424415,2025-05-19 21h46.47.156212 +0300,
img17.png,пиццерретто-голубетто,Фонологический,Слово рифмуется с "облакоро"?,left,,,,0,4,4,16,,,,,76.45130459999996,,,,,,,76.43657369999983,77.76987169999984,space,0.8085315999999239,None,77.77042329999995,80.28481089999991,80.28482769999982,80.30146679999984,81.55252289999999,right,0,1.2470529999998234,None,,,,,,,,,,,,,,,,,315882,001,2025-05-19_21h46.30.255,con_exp,2023.2.3,59.9984040424415,2025-05-19 21h46.47.156212 +0300,
img21.png,туалетто-кенгуретто,Самоотнесенный,Ассоциируете ли Вы себя с этим словом?,right,,,,0,5,5,20,,,,,81.5709824999999,,,,,,,81.553224,85.06893349999996,space,2.989663400000154,None,85.06929639999998,87.58473140000001,87.58474549999983,87.60123939999994,93.66930089999983,right,1,6.057284600000003,None,,,,,,,,,,,,,,,,,315882,001,2025-05-19_21h46.30.255,con_exp,2023.2.3,59.9984040424415,2025-05-19 21h46.47.156212 +0300,
img5.png,журналетто-кабанетто,Фонологический,Слово рифмуется с "пейзажини"?,left,,,,0,6,6,4,,,,,93.69257349999998,,,,,,,93.6704858999999,95.60247869999989,space,1.4093391000001247,None,95.60286689999998,98.11797579999984,98.11799029999997,98.13466289999997,99.36893329999998,right,0,1.218095799999901,None,,,,,,,,,,,,,,,,,315882,001,2025-05-19_21h46.30.255,con_exp,2023.2.3,59.9984040424415,2025-05-19 21h46.47.156212 +0300,
img4.png,ДИВАНИТТО-ТЮЛЕНИТТО,Перцептивный,Слово написано большими буквами?,right,,,,0,7,7,3,,,,,99.38480279999999,,,,,,,99.36963189999983,100.58562399999983,space,0.7028076999999939,None,100.58600549999983,103.10144779999996,103.1014631999999,103.11788019999995,103.7534091,right,1,0.6262795000000096,None,,,,,,,,,,,,,,,,,315882,001,2025-05-19_21h46.30.255,con_exp,2023.2.3,59.9984040424415,2025-05-19 21h46.47.156212 +0300,
img19.png,сахарини-комарини,Перцептивный,Слово написано большими буквами?,left,,,,0,8,8,18,,,,,103.76838389999989,,,,,,,103.75468469999987,104.91891049999981,space,0.638597000000118,None,104.91926990000002,107.43478329999994,107.43479749999983,107.45136860000002,108.03559419999988,right,0,0.5784461999999166,None,,,,,,,,,,,,,,,,,315882,001,2025-05-19_21h46.30.255,con_exp,2023.2.3,59.9984040424415,2025-05-19 21h46.47.156212 +0300,
img8.png,КЛУБНИЧИТТО-ХОМЯЧИТТО,Фонологический,Слово рифмуется с  "ветеритто"?,right,,,,0,9,9,7,,,,,108.0512260999999,,,,,,,108.03627019999999,109.08580559999996,space,0.531276600000183,None,109.08618919999981,111.6013473999999,111.60136149999994,111.61786080000002,112.25233800000001,right,1,0.6258878999999524,None,,,,,,,,,,,,,,,,,315882,001,2025-05-19_21h46.30.255,con_exp,2023.2.3,59.9984040424415,2025-05-19 21h46.47.156212 +0300,
img10.png,КУВШИНО-ЛОШАДИНО,Перцептивный,Слово написано большими буквами?,right,,,,0,10,10,9,,,,,112.26792609999984,,,,,,,112.25303129999998,113.88575809999998,space,1.1143408000000363,None,113.8861336,116.4014267,116.40144209999994,116.41814649999992,116.85216419999983,right,1,0.4266211999999996,None,,,,,,,,,,,,,,,,,315882,001,2025-05-19_21h46.30.255,con_exp,2023.2.3,59.9984040424415,2025-05-19 21h46.47.156212 +0300,
img15.png,огурцони-акулони,Самоотнесенный,Ассоциируете ли Вы себя с этим словом?,right,,,,0,11,11,14,,,,,116.86787789999994,,,,,,,116.85287589999984,118.6696179999999,space,1.28820769999993,None,118.67005069999982,121.18481980000001,121.18483389999983,121.20132309999985,121.8045032,right,1,0.5891305000000102,None,,,,,,,,,,,,,,,,,315882,001,2025-05-19_21h46.30.255,con_exp,2023.2.3,59.9984040424415,2025-05-19 21h46.47.156212 +0300,
img12.png,ЛАНДЫШЕЛЛО-МАРТЫШЕЛЛО,Самоотнесенный,Ассоциируете ли Вы себя с этим словом?,right,,,,0,12,12,11,,,,,121.81805069999996,,,,,,,121.8055405,123.50256330000002,space,1.1815857000001415,None,123.50294739999981,126.01842709999983,126.01845159999993,126.03499069999998,126.51902949999999,right,1,0.4784534000000349,None,,,,,,,,,,,,,,,,,315882,001,2025-05-19_21h46.30.255,con_exp,2023.2.3,59.9984040424415,2025-05-19 21h46.47.156212 +0300,
img3.png,барахлоро-коалоро,Самоотнесенный,Ассоциируете ли Вы себя с этим словом?,right,,,,0,13,13,2,,,,,126.53459739999994,,,,,,,126.51968639999996,128.63570789999994,space,1.5919248000000152,None,128.63608569999997,131.15139999999997,131.15141329999983,131.16792079999982,131.7860536999999,right,1,0.602243000000044,None,,,,,,,,,,,,,,,,,315882,001,2025-05-19_21h46.30.255,con_exp,2023.2.3,59.9984040424415,2025-05-19 21h46.47.156212 +0300,
img2.png,БАНАНОРО-ФАЗАНОРО,Фонологический,Слово рифмуется с "облакоро"?,right,,,,0,14,14,1,,,,,131.80585989999986,,,,,,,131.78680359999998,134.0191878999999,space,1.7145850999997947,None,134.0195772999998,136.53476649999993,136.5347807999999,136.55127659999994,137.70350629999984,right,1,1.1473742999999104,None,,,,,,,,,,,,,,,,,315882,001,2025-05-19_21h46.30.255,con_exp,2023.2.3,59.9984040424415,2025-05-19 21h46.47.156212 +0300,
img18.png,РУБИНОРО-ДЕЛЬФИНОРО,Самоотнесенный,Ассоциируете ли Вы себя с этим словом?,right,,,,0,15,15,17,,,,,137.72445319999997,,,,,,,137.70428589999983,139.43578839999986,space,1.2151627000000644,None,139.43616309999993,141.95155649999992,141.95157329999984,141.9680042,142.48572919999992,right,1,0.510877500000106,None,,,,,,,,,,,,,,,,,315882,001,2025-05-19_21h46.30.255,con_exp,2023.2.3,59.9984040424415,2025-05-19 21h46.47.156212 +0300,
img9.png,кокосело-медузело,Самоотнесенный,Ассоциируете ли Вы себя с этим словом?,right,,,,0,16,16,8,,,,,142.50132029999986,,,,,,,142.48641929999985,143.7028839999998,space,0.6967428999998901,None,143.70326219999993,146.21813759999986,146.21815419999984,146.23469409999984,146.86919079999984,right,1,0.6245438000000831,None,,,,,,,,,,,,,,,,,315882,001,2025-05-19_21h46.30.255,con_exp,2023.2.3,59.9984040424415,2025-05-19 21h46.47.156212 +0300,
img16.png,ПЕЛЬМЕНИНО-ЕЖИНО,Перцептивный,Слово написано большими буквами?,right,,,,0,17,17,15,,,,,146.8845999,,,,,,,146.86981339999988,148.40244710000002,space,1.0083059999999477,None,148.40282109999998,150.91810529999998,150.91812319999985,150.93478579999987,151.56908009999984,right,1,0.6202382999999827,None,,,,,,,,,,,,,,,,,315882,001,2025-05-19_21h46.30.255,con_exp,2023.2.3,59.9984040424415,2025-05-19 21h46.47.156212 +0300,
img22.png,ФАСТФУДОРО-ВЕРБЛЮДОРО,Перцептивный,Слово написано большими буквами?,right,,,,0,18,18,21,,,,,151.58473909999998,,,,,,,151.5698385999999,152.9856302999999,space,0.8950164000000314,None,152.98599009999998,155.50145099999986,155.50146410000002,155.51793239999984,156.08576900000003,right,1,0.5513791000000765,None,,,,,,,,,,,,,,,,,315882,001,2025-05-19_21h46.30.255,con_exp,2023.2.3,59.9984040424415,2025-05-19 21h46.47.156212 +0300,
img14.png,МОНИТОРО-КАМБАЛОРО,Фонологический,Слово рифмуется с "ветеритто"?,left,,,,0,19,19,13,,,,,156.1018454,,,,,,,156.0864575999999,158.8193985999999,space,2.215178200000082,None,158.81978609999987,161.33508289999986,161.33509679999997,161.3512627,161.76892769999995,right,0,0.4010195000000749,None,,,,,,,,,,,,,,,,,315882,001,2025-05-19_21h46.30.255,con_exp,2023.2.3,59.9984040424415,2025-05-19 21h46.47.156212 +0300,
img20.png,БОТИЧИНИ-КРОЛИЧИНИ,Фонологический,Слово рифмуется с "пейзажини"?,right,,,,0,20,20,19,,,,,161.7897802,,,,,,,161.76975019999986,162.95234229999983,space,0.6548116000001301,None,162.95272490000002,165.46824749999996,165.46826209999995,165.48481509999988,165.985956,right,1,0.4947753000001285,None,,,,,,,,,,,,,,,,,315882,001,2025-05-19_21h46.30.255,con_exp,2023.2.3,59.9984040424415,2025-05-19 21h46.47.156212 +0300,
img11.png,лавашетто-лягушето,Фонологический,Слово рифмуется с "туманетто"?,right,,,,0,21,21,10,,,,,166.00133379999988,,,,,,,165.98671769999987,167.2857752,space,0.7816990999999689,None,167.28612599999997,169.8018608,169.80187549999982,169.81811779999998,170.35246599999982,right,1,0.5237643000000389,None,,,,,,,,,,,,,,,,,315882,001,2025-05-19_21h46.30.255,con_exp,2023.2.3,59.9984040424415,2025-05-19 21h46.47.156212 +0300,
img24.png,ШАМПИНЬОРО-ОСЬМИНОРО,Самоотнесенный,Ассоциируете ли Вы себя с этим словом?,right,,,,0,22,22,23,,,,,170.36796789999994,,,,,,,170.35314240000002,171.7695764,space,0.9152788999999757,None,171.76993979999997,174.28479029999994,174.28480530000002,174.30123750000007,174.76940059999993,right,1,0.46271000000024287,None,,,,,,,,,,,,,,,,,315882,001,2025-05-19_21h46.30.255,con_exp,2023.2.3,59.9984040424415,2025-05-19 21h46.47.156212 +0300,
img6.png,КАРТОШЕЛЛО-КУКУШЕЛЛО,Самоотнесенный,Ассоциируете ли Вы себя с этим словом?,right,,,,0,23,23,5,,,,,174.78504259999977,,,,,,,174.77025170000002,175.78657399999997,space,0.49988619999976436,None,175.78712280000013,178.3014086999999,178.30142309999997,178.3179944000001,178.70271260000004,right,1,0.3787563000000773,None,,,,,,,,,,,,,,,,,315882,001,2025-05-19_21h46.30.255,con_exp,2023.2.3,59.9984040424415,2025-05-19 21h46.47.156212 +0300,
,,,,,,,,,,,,,,,,,,,,,,,,,,,,,,,,,,,,,178.7034256999998,194.2859901999998,space,15.559935199999927,None,,,,,,,,,,,,315882,001,2025-05-19_21h46.30.255,con_exp,2023.2.3,59.9984040424415,2025-05-19 21h46.47.156212 +0300,
,,,,,img39.png,перчеритто-шакалитто,left,,,,,0,0,0,38,194.36868769999978,,,,,,,,,,,,,,,,,,,,,,,,,,194.30861179999988,194.36868769999978,198.9692766999999,right,0,4.5932143,None,,,,,315882,001,2025-05-19_21h46.30.255,con_exp,2023.2.3,59.9984040424415,2025-05-19 21h46.47.156212 +0300,
,,,,,img27.png,желудони-енотони,left,,,,,0,1,1,26,199.01864039999987,,,,,,,,,,,,,,,,,,,,,,,,,,198.97024420000002,199.01864039999987,200.4690966999999,right,0,1.4389946999999665,None,,,,,315882,001,2025-05-19_21h46.30.255,con_exp,2023.2.3,59.9984040424415,2025-05-19 21h46.47.156212 +0300,
,,,,,img33.png,кузовелло-жирафелло,left,,,,,0,2,2,32,200.51844159999996,,,,,,,,,,,,,,,,,,,,,,,,,,200.4698049000001,200.51844159999996,201.5862695999997,right,0,1.0650048999996216,None,,,,,315882,001,2025-05-19_21h46.30.255,con_exp,2023.2.3,59.9984040424415,2025-05-19 21h46.47.156212 +0300,
,,,,,img14.png,МОНИТОРО-КАМБАЛОРО,right,,,,,0,3,3,13,201.62339880000013,,,,,,,,,,,,,,,,,,,,,,,,,,201.58688419999976,201.62339880000013,202.76994309999986,right,0,1.1401347000000897,None,,,,,315882,001,2025-05-19_21h46.30.255,con_exp,2023.2.3,59.9984040424415,2025-05-19 21h46.47.156212 +0300,
,,,,,img45.png,чебуритто-заячитто,left,,,,,0,4,4,44,202.82269389999988,,,,,,,,,,,,,,,,,,,,,,,,,,202.77111979999995,202.82269389999988,206.60242119999998,right,0,3.7653456999996706,None,,,,,315882,001,2025-05-19_21h46.30.255,con_exp,2023.2.3,59.9984040424415,2025-05-19 21h46.47.156212 +0300,
,,,,,img38.png,ПАНТОЛОНИ-ПАНТЕРОНИ,left,,,,,0,5,5,37,206.64775559999975,,,,,,,,,,,,,,,,,,,,,,,,,,206.60312099999987,206.64775559999975,208.5524465000001,right,0,1.898751700000048,None,,,,,315882,001,2025-05-19_21h46.30.255,con_exp,2023.2.3,59.9984040424415,2025-05-19 21h46.47.156212 +0300,
,,,,,img28.png,КАПУЧИНО-ПАУЧИНО,left,,,,,0,6,6,27,208.59547679999991,,,,,,,,,,,,,,,,,,,,,,,,,,208.5531343,208.59547679999991,209.43600559999982,right,0,0.8287619000002451,None,,,,,315882,001,2025-05-19_21h46.30.255,con_exp,2023.2.3,59.9984040424415,2025-05-19 21h46.47.156212 +0300,
,,,,,img29.png,кебабони-жабобони,left,,,,,0,7,7,28,209.4812615999997,,,,,,,,,,,,,,,,,,,,,,,,,,209.4366877,209.4812615999997,210.08606299999997,right,0,0.6009213000002092,None,,,,,315882,001,2025-05-19_21h46.30.255,con_exp,2023.2.3,59.9984040424415,2025-05-19 21h46.47.156212 +0300,
,,,,,img24.png,ШАМПИНЬОРО-ОСЬМИНОРО,right,,,,,0,8,8,23,210.12264410000012,,,,,,,,,,,,,,,,,,,,,,,,,,210.09494979999977,210.12264410000012,210.70291369999973,right,0,0.5644401999998081,None,,,,,315882,001,2025-05-19_21h46.30.255,con_exp,2023.2.3,59.9984040424415,2025-05-19 21h46.47.156212 +0300,
,,,,,img32.png,КОМОДОНИ-ЛЕБЕДОНИ,left,,,,,0,9,9,31,210.7595199,,,,,,,,,,,,,,,,,,,,,,,,,,210.7037115999999,210.7595199,211.2690909999999,right,0,0.5022326000002977,None,,,,,315882,001,2025-05-19_21h46.30.255,con_exp,2023.2.3,59.9984040424415,2025-05-19 21h46.47.156212 +0300,
,,,,,img31.png,книжеллини-журавлини,left,,,,,0,10,10,30,211.31133260000001,,,,,,,,,,,,,,,,,,,,,,,,,,211.26979649999998,211.31133260000001,211.83627760000013,right,0,0.5237907000000632,None,,,,,315882,001,2025-05-19_21h46.30.255,con_exp,2023.2.3,59.9984040424415,2025-05-19 21h46.47.156212 +0300,
,,,,,img1.png,арбузоро-гепардоро,right,,,,,0,11,11,0,211.86703539999985,,,,,,,,,,,,,,,,,,,,,,,,,,211.8369508999997,211.86703539999985,212.40307299999972,right,0,0.5201443999999356,None,,,,,315882,001,2025-05-19_21h46.30.255,con_exp,2023.2.3,59.9984040424415,2025-05-19 21h46.47.156212 +0300,
,,,,,img18.png,РУБИНОРО-ДЕЛЬФИНОРО,right,,,,,0,12,12,17,212.42886299999986,,,,,,,,,,,,,,,,,,,,,,,,,,212.40369600000008,212.42886299999986,213.00254310000014,right,0,0.5664859999997134,None,,,,,315882,001,2025-05-19_21h46.30.255,con_exp,2023.2.3,59.9984040424415,2025-05-19 21h46.47.156212 +0300,
,,,,,img34.png,ЛАМПОЧИТТО-ВОРОБЬИТТО,left,,,,,0,13,13,33,213.0633077,,,,,,,,,,,,,,,,,,,,,,,,,,213.00322230000006,213.0633077,213.6702987000001,right,0,0.6056998000003659,None,,,,,315882,001,2025-05-19_21h46.30.255,con_exp,2023.2.3,59.9984040424415,2025-05-19 21h46.47.156212 +0300,
,,,,,img20.png,БОТИЧИНИ-КРОЛИЧИНИ,right,,,,,0,14,14,19,213.74036030000002,,,,,,,,,,,,,,,,,,,,,,,,,,213.6713275999998,213.74036030000002,214.2692482,right,0,0.5220438999999715,None,,,,,315882,001,2025-05-19_21h46.30.255,con_exp,2023.2.3,59.9984040424415,2025-05-19 21h46.47.156212 +0300,
,,,,,img7.png,кирпичони-саранчони,right,,,,,0,15,15,6,214.29980739999996,,,,,,,,,,,,,,,,,,,,,,,,,,214.27002789999983,214.29980739999996,214.90468179999993,right,0,0.5887427999996362,None,,,,,315882,001,2025-05-19_21h46.30.255,con_exp,2023.2.3,59.9984040424415,2025-05-19 21h46.47.156212 +0300,
,,,,,img30.png,КЛАВИШОРО-КУКУШОРО,left,,,,,0,16,16,29,214.96911560000012,,,,,,,,,,,,,,,,,,,,,,,,,,214.90603669999996,214.96911560000012,215.4692665,right,0,0.4973984999996901,None,,,,,315882,001,2025-05-19_21h46.30.255,con_exp,2023.2.3,59.9984040424415,2025-05-19 21h46.47.156212 +0300,
,,,,,img22.png,ФАСТФУДОРО-ВЕРБЛЮДОРО,right,,,,,0,17,17,21,215.50037689999976,,,,,,,,,,,,,,,,,,,,,,,,,,215.4699505000001,215.50037689999976,216.06920269999978,right,0,0.5662459000000126,None,,,,,315882,001,2025-05-19_21h46.30.255,con_exp,2023.2.3,59.9984040424415,2025-05-19 21h46.47.156212 +0300,
,,,,,img47.png,шкафачетто-собачетто,left,,,,,0,18,18,46,216.11906669999985,,,,,,,,,,,,,,,,,,,,,,,,,,216.06988949999982,216.11906669999985,216.68662590000008,right,0,0.5540922999998656,None,,,,,315882,001,2025-05-19_21h46.30.255,con_exp,2023.2.3,59.9984040424415,2025-05-19 21h46.47.156212 +0300,
,,,,,img25.png,бамбукони-петушони,left,,,,,0,19,19,24,216.74944329999994,,,,,,,,,,,,,,,,,,,,,,,,,,216.68760369999995,216.74944329999994,217.2692058,right,0,0.5088210000003528,None,,,,,315882,001,2025-05-19_21h46.30.255,con_exp,2023.2.3,59.9984040424415,2025-05-19 21h46.47.156212 +0300,
,,,,,img4.png,ДИВАНИТТО-ТЮЛЕНИТТО,right,,,,,0,20,20,3,217.29712300000006,,,,,,,,,,,,,,,,,,,,,,,,,,217.26988610000012,217.29712300000006,217.93591059999994,right,0,0.6356305000003886,None,,,,,315882,001,2025-05-19_21h46.30.255,con_exp,2023.2.3,59.9984040424415,2025-05-19 21h46.47.156212 +0300,
,,,,,img17.png,пиццерретто-голубетто,right,,,,,0,21,21,16,217.96862480000004,,,,,,,,,,,,,,,,,,,,,,,,,,217.9365879999998,217.96862480000004,218.50239429999988,right,0,0.5236650000001646,None,,,,,315882,001,2025-05-19_21h46.30.255,con_exp,2023.2.3,59.9984040424415,2025-05-19 21h46.47.156212 +0300,
,,,,,img10.png,КУВШИНО-ЛОШАДИНО,right,,,,,0,22,22,9,218.54870189999997,,,,,,,,,,,,,,,,,,,,,,,,,,218.50306990000013,218.54870189999997,219.05253190000008,right,0,0.49332200000026205,None,,,,,315882,001,2025-05-19_21h46.30.255,con_exp,2023.2.3,59.9984040424415,2025-05-19 21h46.47.156212 +0300,
,,,,,img11.png,лавашетто-лягушето,right,,,,,0,23,23,10,219.10399940000002,,,,,,,,,,,,,,,,,,,,,,,,,,219.05323070000009,219.10399940000002,219.5525838000001,right,0,0.43505450000020573,None,,,,,315882,001,2025-05-19_21h46.30.255,con_exp,2023.2.3,59.9984040424415,2025-05-19 21h46.47.156212 +0300,
,,,,,img42.png,ТВОРОЖЕЛЛО-БИЗОНЕЛЛО,left,,,,,0,24,24,41,219.60369209999976,,,,,,,,,,,,,,,,,,,,,,,,,,219.55328189999977,219.60369209999976,220.13605789999997,right,0,0.5238878000000113,None,,,,,315882,001,2025-05-19_21h46.30.255,con_exp,2023.2.3,59.9984040424415,2025-05-19 21h46.47.156212 +0300,
,,,,,img6.png,КАРТОШЕЛЛО-КУКУШЕЛЛО,right,,,,,0,25,25,5,220.1696516999998,,,,,,,,,,,,,,,,,,,,,,,,,,220.13674530000003,220.1696516999998,220.6866663999997,right,0,0.5056377999999313,None,,,,,315882,001,2025-05-19_21h46.30.255,con_exp,2023.2.3,59.9984040424415,2025-05-19 21h46.47.156212 +0300,
,,,,,img12.png,ЛАНДЫШЕЛЛО-МАРТЫШЕЛЛО,right,,,,,0,26,26,11,220.7333143999997,,,,,,,,,,,,,,,,,,,,,,,,,,220.68790449999983,220.7333143999997,221.2193165000001,right,0,0.4730734999998276,None,,,,,315882,001,2025-05-19_21h46.30.255,con_exp,2023.2.3,59.9984040424415,2025-05-19 21h46.47.156212 +0300,
,,,,,img15.png,огурцони-акулони,right,,,,,0,27,27,14,221.25224550000007,,,,,,,,,,,,,,,,,,,,,,,,,,221.22005549999972,221.25224550000007,221.7361601,right,0,0.4697817000001123,None,,,,,315882,001,2025-05-19_21h46.30.255,con_exp,2023.2.3,59.9984040424415,2025-05-19 21h46.47.156212 +0300,
,,,,,img44.png,ФИСТАШЕЛЛО-ИНДЮШЕЛЛО,left,,,,,0,28,28,43,221.79952309999976,,,,,,,,,,,,,,,,,,,,,,,,,,221.73684359999993,221.79952309999976,222.28608409999993,right,0,0.48410069999999905,None,,,,,315882,001,2025-05-19_21h46.30.255,con_exp,2023.2.3,59.9984040424415,2025-05-19 21h46.47.156212 +0300,
,,,,,img26.png,ВЕРМИШЕТТО-ШИНШИЛЕТТО,left,,,,,0,29,29,25,222.33420060000003,,,,,,,,,,,,,,,,,,,,,,,,,,222.2867934999997,222.33420060000003,222.80306339999993,right,0,0.46191140000019004,None,,,,,315882,001,2025-05-19_21h46.30.255,con_exp,2023.2.3,59.9984040424415,2025-05-19 21h46.47.156212 +0300,
,,,,,img3.png,барахлоро-коалоро,right,,,,,0,30,30,2,222.83680170000002,,,,,,,,,,,,,,,,,,,,,,,,,,222.8038171999999,222.83680170000002,223.50265909999985,right,0,0.6552022999999281,None,,,,,315882,001,2025-05-19_21h46.30.255,con_exp,2023.2.3,59.9984040424415,2025-05-19 21h46.47.156212 +0300,
,,,,,img13.png,мандарино-пингвинино,right,,,,,0,31,31,12,223.55224029999977,,,,,,,,,,,,,,,,,,,,,,,,,,223.50336649999986,223.55224029999977,224.03624409999998,right,0,0.48229089999995267,None,,,,,315882,001,2025-05-19_21h46.30.255,con_exp,2023.2.3,59.9984040424415,2025-05-19 21h46.47.156212 +0300,
,,,,,img23.png,чайничитто-кошачитто,right,,,,,0,32,32,22,224.0696534000001,,,,,,,,,,,,,,,,,,,,,,,,,,224.03703359999986,224.0696534000001,224.6360843,right,0,0.5504849999997532,None,,,,,315882,001,2025-05-19_21h46.30.255,con_exp,2023.2.3,59.9984040424415,2025-05-19 21h46.47.156212 +0300,
,,,,,img41.png,сосисито-лососито,left,,,,,0,33,33,40,224.6932151999997,,,,,,,,,,,,,,,,,,,,,,,,,,224.6368061999999,224.6932151999997,225.21926269999972,right,0,0.5133532999998351,None,,,,,315882,001,2025-05-19_21h46.30.255,con_exp,2023.2.3,59.9984040424415,2025-05-19 21h46.47.156212 +0300,
,,,,,img21.png,туалетто-кенгуретто,right,,,,,0,34,34,20,225.25313849999998,,,,,,,,,,,,,,,,,,,,,,,,,,225.21997429999988,225.25313849999998,225.7195952999998,right,0,0.4645629999999983,None,,,,,315882,001,2025-05-19_21h46.30.255,con_exp,2023.2.3,59.9984040424415,2025-05-19 21h46.47.156212 +0300,
,,,,,img36.png,МОЖЖЕВЕЛЛО-КОРОВЕЛЛО,left,,,,,0,35,35,35,225.78733119999993,,,,,,,,,,,,,,,,,,,,,,,,,,225.7206109000001,225.78733119999993,226.35261119999973,right,0,0.5488385000003291,None,,,,,315882,001,2025-05-19_21h46.30.255,con_exp,2023.2.3,59.9984040424415,2025-05-19 21h46.47.156212 +0300,
,,,,,img19.png,сахарини-комарини,right,,,,,0,36,36,18,226.37971619999985,,,,,,,,,,,,,,,,,,,,,,,,,,226.35331680000013,226.37971619999985,226.9527102999998,right,0,0.560081000000082,None,,,,,315882,001,2025-05-19_21h46.30.255,con_exp,2023.2.3,59.9984040424415,2025-05-19 21h46.47.156212 +0300,
,,,,,img40.png,РУЛЕТЕЛЛО-МУРАВЬЕЛЛО,left,,,,,0,37,37,39,226.9991007000001,,,,,,,,,,,,,,,,,,,,,,,,,,226.9534114999999,226.9991007000001,227.5026178999999,right,0,0.5017855000000964,None,,,,,315882,001,2025-05-19_21h46.30.255,con_exp,2023.2.3,59.9984040424415,2025-05-19 21h46.47.156212 +0300,
,,,,,img8.png,КЛУБНИЧИТТО-ХОМЯЧИТТО,right,,,,,0,38,38,7,227.54183660000012,,,,,,,,,,,,,,,,,,,,,,,,,,227.5033188,227.54183660000012,228.08610470000008,right,0,0.5346255999997993,None,,,,,315882,001,2025-05-19_21h46.30.255,con_exp,2023.2.3,59.9984040424415,2025-05-19 21h46.47.156212 +0300,
,,,,,img46.png,ЧЕРЕШОНИ-СТРАУСОНИ,left,,,,,0,39,39,45,228.13347219999991,,,,,,,,,,,,,,,,,,,,,,,,,,228.0867971,228.13347219999991,228.6358585999999,right,0,0.49205979999987903,None,,,,,315882,001,2025-05-19_21h46.30.255,con_exp,2023.2.3,59.9984040424415,2025-05-19 21h46.47.156212 +0300,
,,,,,img2.png,БАНАНОРО-ФАЗАНОРО,right,,,,,0,40,40,1,228.674397,,,,,,,,,,,,,,,,,,,,,,,,,,228.63655289999974,228.674397,229.16941209999982,right,0,0.4919568000000254,None,,,,,315882,001,2025-05-19_21h46.30.255,con_exp,2023.2.3,59.9984040424415,2025-05-19 21h46.47.156212 +0300,
,,,,,img48.png,ЯБЛОЧЕТТО-БАРСУЧЕТТО,left,,,,,0,41,41,47,229.22100879999994,,,,,,,,,,,,,,,,,,,,,,,,,,229.1701101000001,229.22100879999994,229.71996849999982,right,0,0.4870427999999265,None,,,,,315882,001,2025-05-19_21h46.30.255,con_exp,2023.2.3,59.9984040424415,2025-05-19 21h46.47.156212 +0300,
,,,,,img16.png,ПЕЛЬМЕНИНО-ЕЖИНО,right,,,,,0,42,42,15,229.78062849999992,,,,,,,,,,,,,,,,,,,,,,,,,,229.72065529999986,229.78062849999992,230.25254130000008,right,0,0.4576477000000523,None,,,,,315882,001,2025-05-19_21h46.30.255,con_exp,2023.2.3,59.9984040424415,2025-05-19 21h46.47.156212 +0300,
,,,,,img35.png,лимонитто-вомбатитто,left,,,,,0,43,43,34,230.3014611000001,,,,,,,,,,,,,,,,,,,,,,,,,,230.2532377,230.3014611000001,230.75284639999995,right,0,0.44845519999989847,None,,,,,315882,001,2025-05-19_21h46.30.255,con_exp,2023.2.3,59.9984040424415,2025-05-19 21h46.47.156212 +0300,
,,,,,img9.png,кокосело-медузело,right,,,,,0,44,44,8,230.8178962999998,,,,,,,,,,,,,,,,,,,,,,,,,,230.75392989999978,230.8178962999998,231.3693636999999,right,0,0.5480824999999641,None,,,,,315882,001,2025-05-19_21h46.30.255,con_exp,2023.2.3,59.9984040424415,2025-05-19 21h46.47.156212 +0300,
,,,,,img5.png,журналетто-кабанетто,right,,,,,0,45,45,4,231.4045122,,,,,,,,,,,,,,,,,,,,,,,,,,231.37005029999978,231.4045122,231.88592360000007,right,0,0.47226369999998496,None,,,,,315882,001,2025-05-19_21h46.30.255,con_exp,2023.2.3,59.9984040424415,2025-05-19 21h46.47.156212 +0300,
,,,,,img37.png,морковетто-ласточетто,left,,,,,0,46,46,36,231.93277460000013,,,,,,,,,,,,,,,,,,,,,,,,,,231.88656969999988,231.93277460000013,232.41912309999975,right,0,0.4703872999998566,None,,,,,315882,001,2025-05-19_21h46.30.255,con_exp,2023.2.3,59.9984040424415,2025-05-19 21h46.47.156212 +0300,
,,,,,img43.png,тюльпанелло-мангустелло,left,,,,,0,47,47,42,232.46941559999982,,,,,,,,,,,,,,,,,,,,,,,,,,232.41983340000002,232.46941559999982,232.9357032999999,right,0,0.4524616999997306,None,,,,,315882,001,2025-05-19_21h46.30.255,con_exp,2023.2.3,59.9984040424415,2025-05-19 21h46.47.156212 +0300,
,,,,,,,,,,,,,,,,,,,,,,,,,,,,,,,,,,,,,,,,,,,,,,,,,232.93620880000003,232.9514928000001,234.95143940000003,234.93561939999995,,,,,,,,
